Folder: ME-354/FractureLab (part 3)

File: Ti 90deg 1.csv
Time (s),Displacement (mm) ,Load (N),Width (mm),Base (mm),Final crack length (mm)
0,-0.00115,-0.96053,25.0,9.24,9.8
0.3,-0.00108,-0.07856
0.6,-0.0008,12.08756
0.9,-0.00045,21.66768
1.2,-0.00003,33.80497
1.5,0.00034,56.0237
1.8,0.00075,80.01481
2.1,0.00122,102.766
2.4,0.00169,147.872
2.7,0.00216,174.176
3,0.00273,211.13
3.3,0.00336,233.425
3.6,0.00398,261.998
3.9,0.0047,296.382
4.2,0.00541,337.4603
4.5,0.00622,379.2
4.8,0.00711,416.493
5.1,0.00809,455.345
5.4,0.00917,512.843
5.7,0.01018,558.71
6,0.01136,603.3045
6.3,0.01253,640.31
6.6,0.01386,686.639
6.9,0.01517,744.986
7.2,0.0165,799.684
7.5,0.01783,841.9115
7.8,0.01925,881.716
8.1,0.02075,943.1571
8.4,0.0222,999.8075
8.7,0.02369,1044.9
9,0.02529,1084.86
9.3,0.02679,1142.95
9.6,0.02829,1210.96
9.9,0.02978,1252.91
10.2,0.03142,1303.42
10.5,0.03306,1374.61
10.8,0.0347,1431.36
11.1,0.0363,1469.14
11.4,0.03801,1523.64
11.7,0.03971,1589.58
12,0.04136,1651.7
12.3,0.043,1689.83
12.6,0.04461,1751.68
12.9,0.04621,1824.23
13.2,0.04777,1871.99
13.5,0.04943,1922.43
13.8,0.05123,1986.29
14.1,0.05295,2050.3
14.4,0.05464,2100.22
14.7,0.05631,2158.02
15,0.05808,2222.25
15.3,0.0598,2275.46
15.6,0.06142,2335.34
15.9,0.06308,2415.89
16.2,0.06479,2475.87
16.5,0.06652,2511.52
16.8,0.06829,2569.5
17.1,0.07002,2652.03
17.4,0.07181,2710.22
17.7,0.07355,2769.21
18,0.07534,2823.78
18.3,0.0771,2890.47
18.6,0.0788,2949.68
18.9,0.08074,3037.26
19.2,0.08246,3089.11
19.5,0.08426,3130.99
19.8,0.086,3193.56
20.1,0.08777,3285.46
20.4,0.08953,3339.26
20.7,0.09136,3391.23
21,0.09321,3474.24
21.3,0.09507,3538.82
21.6,0.09694,3607.13
21.9,0.09877,3664.74
22.2,0.10069,3720.2
22.5,0.10248,3793.78
22.8,0.10428,3876.73
23.1,0.1061,3937.21
23.4,0.1079,3982.15
23.7,0.10983,4063.64
24,0.11169,4136.92
24.3,0.11359,4196.4
24.6,0.11539,4265.49
24.9,0.11732,4330.4
25.2,0.11917,4388.73
25.5,0.12108,4482.95
25.8,0.12291,4540.43
26.1,0.12484,4595.6
26.4,0.12677,4681.02
26.7,0.12853,4759.41
27,0.13058,4805.1
27.3,0.13243,4887.78
27.6,0.13442,4957.61
27.9,0.13621,5020.36
28.2,0.13818,5095.41
28.5,0.14009,5170.08
28.8,0.14204,5222.98
29.1,0.14395,5307.87
29.4,0.14587,5374.97
29.7,0.14787,5448.19
30,0.14978,5518.49
30.3,0.1517,5592.08
30.6,0.15365,5655.68
30.9,0.1558,5740.83
31.2,0.15776,5800.73
31.5,0.15966,5876.3
31.8,0.16161,5954.6
32.1,0.1636,6017.24
32.4,0.16566,6092.64
32.7,0.16762,6175.39
33,0.16978,6229.01
33.3,0.17178,6324.61
33.6,0.17391,6405.44
33.9,0.17586,6449.29
34.2,0.17776,6525.74
34.5,0.17978,6613.95
34.8,0.18189,6686.97
35.1,0.18402,6754.41
35.4,0.18614,6822.01
35.7,0.18819,6909.88
36,0.19021,6998.48
36.3,0.19224,7040.24
36.6,0.19441,7127.31
36.9,0.19649,7217.5
37.2,0.19862,7281.9
37.5,0.20064,7350.46
37.8,0.20285,7436.59
38.1,0.205,7520.17
38.4,0.20708,7597
38.7,0.20918,7647.6
39,0.21136,7729.22
39.3,0.21359,7834.65
39.6,0.21577,7883.77
39.9,0.21778,7966.78
40.2,0.21985,8049.39
40.5,0.22197,8120.79
40.8,0.22409,8192.66
41.1,0.22638,8266.36
41.4,0.22861,8342.59
41.7,0.23084,8444.14
42,0.23304,8491.56
42.3,0.23512,8576.34
42.6,0.23731,8669.45
42.9,0.23944,8726.67
43.2,0.2418,8815.5
43.5,0.24388,8885.34
43.8,0.24615,8970.45
44.1,0.24834,9047.77
44.4,0.25064,9116.54
44.7,0.25284,9204.89
45,0.25511,9289.45
45.3,0.25732,9343.16
45.6,0.25952,9430.02
45.9,0.26172,9512.54
46.2,0.26394,9582.78
46.5,0.26619,9677.48
46.8,0.26857,9732.81
47.1,0.27094,9821.53
47.4,0.27319,9900.53
47.7,0.27545,9969.31
48,0.27771,10059.3
48.3,0.27994,10126.8
48.6,0.28222,10203.1
48.9,0.28463,10294.3
49.2,0.28695,10359.8
49.5,0.28934,10431.6
49.8,0.29169,10527.7
50.1,0.29403,10583.4
50.4,0.29638,10672.8
50.7,0.29868,10735.3
51,0.30132,10824.9
51.3,0.3039,10910.3
51.6,0.30638,10962.4
51.9,0.30891,11032.6
52.2,0.31132,11131.6
52.5,0.31392,11200.5
52.8,0.3164,11269.3
53.1,0.31882,11351.5
53.4,0.32121,11419.6
53.7,0.32384,11510.1
54,0.32654,11565.8
54.3,0.32925,11647.3
54.6,0.33192,11725.9
54.9,0.3345,11797.2
55.2,0.33708,11851
55.5,0.33965,11946.3
55.8,0.34222,12013.7
56.1,0.34471,12095.2
56.4,0.34764,12155.2
56.7,0.35097,12201.2
57,0.35775,12185
57.3,0.36252,12216.8
57.6,0.36589,12283.6
57.65,0.38365,11865.3
57.676,0.39962,11474.3
57.976,0.40576,11512.8
58.276,0.4097,11568.4
58.576,0.41364,11654.1
58.876,0.41755,11747.3
59.176,0.42156,11801.2
59.476,0.4258,11854.5
59.776,0.42971,11942.5
60.076,0.43401,11981.5
60.376,0.4381,12053.6
60.676,0.44233,12108.7
60.976,0.44726,12145.6
61.276,0.45156,12182.7
61.576,0.45552,12229.9
61.876,0.46308,12198.5
61.926,0.47795,11786
62.152,0.48813,11655.6
62.452,0.49368,11710.2
62.752,0.50039,11732.4
63.052,0.50728,11744.5
63.352,0.51414,11750.5
63.652,0.52035,11767.6
63.952,0.52592,11795.5
64.092,0.53836,11484.1
64.392,0.5503,11374.6
64.692,0.55873,11360
64.992,0.56565,11362.4
65.262,0.57867,11190.7
65.488,0.59422,10957.6
65.788,0.60104,10957.1
66.088,0.60657,10964.8
66.388,0.61211,10981.5
66.688,0.61753,11025.1
66.988,0.62373,11032.9
67.288,0.63125,11001.125
67.588,0.63739,11016.5
67.888,0.64564,10969.2
68.188,0.65521,10916.2
68.488,0.66305,10877.7
68.788,0.673,10779.7
69.04,0.6895,10548
69.158,0.70913,10157.2
69.262,0.72874,9770.07
69.34,0.74862,9363.6
69.352,0.77299,8832.92
69.364,0.80247,8194.29
69.376,0.82487,7716.18
69.402,0.84652,7270.43
69.52,0.87247,6891.43
69.556,0.90013,6416.85
69.568,0.92871,5921.74
69.58,0.95465,5486.32
69.6,0.9813,5058.42

File: Ti 90deg 2.csv
Time (s),Displacement (mm) ,Load (N),Width (mm),Base (mm),Final crack length (mm)
0,-0.00023,0.8829,25.0,9.24,7.67
0.3,-0.00017,1.52057
0.6,0.00032,17.06333
0.9,0.00073,43.70475
1.2,0.00122,78.02995
1.5,0.00168,128.4
1.8,0.0022,160.0715
2.1,0.0027,202.21
2.4,0.00325,223.867
2.7,0.00372,254.419
3,0.00433,288.12
3.3,0.00495,329.304
3.6,0.00561,376.291
3.9,0.00628,416.712
4.2,0.00699,449.401
4.5,0.00777,509.206
4.8,0.00861,558.63
5.1,0.00942,604.976
5.4,0.01031,642.198
5.7,0.01117,698.66
6,0.0121,760.261
6.3,0.01309,820.706
6.6,0.01421,857.292
6.9,0.01532,912.877
7.2,0.0164,973.036
7.5,0.01746,1033.37
7.8,0.01858,1081.99
8.1,0.01971,1148.07
8.4,0.02083,1214.93
8.7,0.02198,1262.01
9,0.02314,1327.66
9.3,0.02436,1391.58
9.6,0.0256,1444.57
9.9,0.02671,1498.43
10.2,0.02803,1571.61
10.5,0.02935,1638.84
10.8,0.03061,1680
11.1,0.03189,1753.44
11.4,0.03321,1833.92
11.7,0.0345,1878.81
12,0.03581,1941.1
12.3,0.03707,2007.27
12.6,0.0383,2071.8
12.9,0.03958,2134.96
13.2,0.04091,2201.84
13.5,0.04219,2259.36
13.8,0.0435,2318.76
14.1,0.04481,2406.49
14.4,0.0461,2468.67
14.7,0.04743,2507.99
15,0.04879,2584.3
15.3,0.05008,2663.25
15.6,0.0514,2723.2
15.9,0.05273,2782.45
16.2,0.05416,2856.85
16.5,0.05559,2923.72
16.8,0.05703,3005.47
17.1,0.05842,3073.37
17.4,0.05982,3118.23
17.7,0.06121,3197.49
18,0.06258,3285.35
18.3,0.06394,3341.64
18.6,0.06524,3407.24
18.9,0.0666,3484.59
19.2,0.06802,3551.35
19.5,0.06939,3633.73
19.8,0.07076,3690.5
20.1,0.07226,3751.33
20.4,0.07379,3848.82
20.7,0.07524,3922.88
21,0.07661,3961.1
21.3,0.07808,4050.56
21.6,0.07947,4132.25
21.9,0.0809,4201.24
22.2,0.08236,4265.17
22.5,0.08378,4335
22.8,0.08522,4419.87
23.1,0.08676,4498.05
23.4,0.08821,4556.65
23.7,0.08968,4631.75
24,0.09116,4724.34
24.3,0.09267,4777.31
24.6,0.09417,4861.29
24.9,0.0957,4941.03
25.2,0.09715,5007.46
25.5,0.09869,5088.22
25.8,0.10022,5164.77
26.1,0.10185,5235.7
26.4,0.10337,5322.29
26.7,0.10485,5385.34
27,0.10632,5470.7
27.3,0.10784,5559.74
27.6,0.10942,5616.93
27.9,0.11086,5711.71
28.2,0.11256,5786.69
28.5,0.1141,5862.48
28.8,0.11581,5953.41
29.1,0.1174,6016.89
29.4,0.1189,6101.72
29.7,0.12047,6181.56
30,0.12203,6252.26
30.3,0.12358,6346.73
30.6,0.12511,6416.47
30.9,0.12678,6484.31
31.2,0.12828,6585.45
31.5,0.12992,6650.63
31.8,0.13161,6736.55
32.1,0.13326,6809.33
32.4,0.13487,6902.24
32.7,0.13648,6999.4
33,0.13807,7040.31
33.3,0.13969,7143.84
33.6,0.14144,7240.9
33.9,0.14296,7304.29
34.2,0.1447,7398.6
34.5,0.14638,7470.82
34.8,0.14804,7572.78
35.1,0.14965,7631.42
35.4,0.15126,7717.61
35.7,0.15289,7822.98
36,0.15456,7876
36.3,0.15628,7974.06
36.6,0.15802,8065.94
36.9,0.15979,8147.06
37.2,0.16138,8226.56
37.5,0.16312,8298.36
37.8,0.16482,8405.82
38.1,0.16652,8471.32
38.4,0.16821,8562.69
38.7,0.16994,8666.15
39,0.17178,8740.12
39.3,0.17362,8834.81
39.6,0.17538,8907.63
39.9,0.17705,9000.22
40.2,0.17877,9086.58
40.5,0.18057,9165.64
40.8,0.18232,9270.98
41.1,0.18403,9331.37
41.4,0.18575,9425.54
41.7,0.18766,9515.67
42,0.18947,9600.2
42.3,0.19127,9701.56
42.6,0.19304,9775.03
42.9,0.19485,9867.74
43.2,0.19661,9947.87
43.5,0.19844,10047.1
43.8,0.20023,10118.125
44.1,0.20208,10215
44.4,0.20406,10317.3
44.7,0.20582,10388.6
45,0.20767,10488.8
45.3,0.20945,10562.8
45.6,0.21132,10662.6
45.9,0.21314,10730.6
46.2,0.21496,10832.4
46.5,0.21696,10937.2
46.8,0.21874,10988.3
47.1,0.2206,11110.8
47.4,0.22241,11185
47.7,0.22431,11267.8
48,0.22623,11358.1
48.3,0.22815,11455.1
48.6,0.23004,11543.1
48.9,0.23206,11620.2
49.2,0.23407,11736
49.5,0.236,11800.7
49.8,0.23785,11887.9
50.1,0.23972,11975.9
50.4,0.24161,12081.8
50.7,0.24359,12160.8
51,0.24564,12241.7
51.3,0.24757,12358.7
51.6,0.2496,12407.8
51.9,0.25159,12509.8
52.2,0.25356,12611
52.5,0.25549,12686.9
52.8,0.25745,12789.9
53.1,0.25946,12876.9
53.4,0.26139,12966.4
53.7,0.2634,13045
54,0.26539,13143.2
54.3,0.26732,13223
54.6,0.26944,13317.2
54.9,0.27156,13410.3
55.2,0.27378,13487.5
55.5,0.27591,13588.2
55.8,0.27791,13650.9
56.1,0.27989,13753.6
56.4,0.28197,13828.5
56.7,0.28398,13919.1
57,0.28609,14019.9
57.3,0.28824,14067.4
57.6,0.29061,14181.2
57.9,0.29276,14258.9
58.2,0.29536,14324.2
58.5,0.29838,14382.1
58.8,0.30074,14468.8
59.1,0.30309,14564.6
59.4,0.30552,14638.6
59.7,0.30799,14699.7
60,0.31105,14772.9
60.3,0.31352,14869.2
60.6,0.31627,14908.6
60.9,0.32239,14892.1
61.2,0.32768,14908.3
61.5,0.33104,14984.7
61.8,0.33432,15065.8
62.034,0.34345,14917.6
62.186,0.35702,14611
62.486,0.36119,14650
62.786,0.36509,14728.6
63.086,0.36878,14816.6
63.386,0.37263,14876.6
63.686,0.37638,14933
63.986,0.38009,15008.1
64.286,0.38341,15080.5
64.586,0.38714,15154.1
64.886,0.39073,15199.6
65.186,0.39448,15262.3
65.316,0.40636,14987.2
65.36,0.421,14597.9
65.66,0.42546,14643.5
65.96,0.43005,14678.4
66.26,0.43463,14765.5
66.56,0.43907,14830.7
66.86,0.44341,14875.2
67.16,0.45085,14853.1
67.31,0.467,14460.6
67.538,0.47815,14291.9
67.756,0.49234,14035.8
67.786,0.50784,13644.9
67.838,0.52409,13234.7
68.138,0.53459,13164.5
68.438,0.54283,13104.1
68.738,0.54943,13087.7
69.038,0.55625,13080.4
69.338,0.56294,13071
69.628,0.5755,12900.3
69.684,0.59145,12494.2
69.706,0.6084,12045.7
69.744,0.62576,11636.7
69.824,0.64423,11250.4
69.912,0.66419,10811.6
69.944,0.68289,10385.2
69.992,0.70159,9994.18
70.194,0.72164,9664.93
70.494,0.739,9404.85
70.794,0.75427,9221.26
70.928,0.77371,8836.56
70.96,0.79419,8427.18
71.116,0.81874,8042.49
71.402,0.8395,7751.39
71.574,0.86306,7367.19
71.874,0.88214,7149.34
72.174,0.8925,7060.66
72.474,0.90718,6918.65
72.554,0.93253,6469.44
72.572,0.95874,6005.91
72.584,0.98314,5585.47
72.596,1.01278,5100.25
72.6,1.02238,4946.75

File: Ti 90deg 3.csv
Time (s),Displacement (mm) ,Load (N),Width (mm),Base (mm),Final crack length (mm)
0,-0.00076,-0.02752,25,9.24,8.21
0.3,-0.00061,3.18274
0.6,-0.00029,12.32141
0.9,-0.00005,21.77358
1.2,0.00017,35.46357
1.5,0.00044,62.82241
1.8,0.00077,76.75123
2.1,0.0011,103.997
2.4,0.00144,130.726
2.7,0.00178,152.66
3,0.00224,175.579
3.3,0.0026,207.356
3.6,0.0031,217.581
3.9,0.00355,240.787
4.2,0.00419,271.53
4.5,0.00488,300.82
4.8,0.00558,337.847
5.1,0.00631,379.482
5.4,0.00703,417.617
5.7,0.00784,450.064
6,0.00871,508.935
6.3,0.00963,552.429
6.6,0.0105,598.34
6.9,0.01148,630.416
7.2,0.01258,678.7196
7.5,0.01359,738.774
7.8,0.01473,800.577
8.1,0.01586,830.329
8.4,0.01698,876.028
8.7,0.01835,938.782
9,0.0196,997.33
9.3,0.02088,1047.99
9.6,0.0222,1102.06
9.9,0.0235,1158.23
10.2,0.02485,1224.43
10.5,0.02625,1262.24
10.8,0.02758,1328.81
11.1,0.02896,1390.01
11.4,0.03042,1440.17
11.7,0.03183,1492.63
12,0.03326,1558.98
12.3,0.0347,1624.22
12.6,0.03604,1662.12
12.9,0.03755,1728.2
13.2,0.03895,1804.85
13.5,0.0403,1855.41
13.8,0.04171,1905.29
14.1,0.04315,1970.177
14.4,0.04465,2042.41
14.7,0.04604,2093.51
15,0.04762,2160.61
15.3,0.04914,2227.92
15.6,0.05052,2268.96
15.9,0.05199,2346.57
16.2,0.05352,2418.55
16.5,0.05495,2479.42
16.8,0.05633,2528.31
17.1,0.05786,2606.22
17.4,0.05937,2683.79
17.7,0.06087,2734.93
18,0.0624,2796.25
18.3,0.06394,2865.11
18.6,0.06556,2929.06
18.9,0.06712,3019.13
19.2,0.06869,3077.36
19.5,0.07011,3114.84
19.8,0.07168,3200.39
20.1,0.07326,3286.6
20.4,0.0748,3339.48
20.7,0.07635,3399.26
21,0.07793,3482.14
21.3,0.07948,3539.08
21.6,0.08107,3624.4
21.9,0.0826,3682.45
22.2,0.08414,3741.3
22.5,0.08574,3832.83
22.8,0.08729,3915.24
23.1,0.08899,3949.29
23.4,0.09063,4024.56
23.7,0.0923,4108.24
24,0.0939,4171.92
24.3,0.09551,4248.62
24.6,0.09714,4319.55
24.9,0.09868,4377.64
25.2,0.10024,4472.44
25.5,0.10183,4535.3
25.8,0.10354,4605.59
26.1,0.10522,4689.45
26.4,0.10697,4759.17
26.7,0.10861,4823.38
27,0.11025,4904.67
27.3,0.112,4974.76
27.6,0.1136,5054.7
27.9,0.11523,5132.88
28.2,0.11692,5186.96
28.5,0.1186,5282.85
28.8,0.1204,5355.8
29.1,0.1221,5428.88
29.4,0.12371,5500.93
29.7,0.12553,5582.73
30,0.12719,5650.2
30.3,0.12888,5747.78
30.6,0.13065,5805.12
30.9,0.13235,5888.96
31.2,0.13425,5969.31
31.5,0.13601,6033.58
31.8,0.13768,6122.52
32.1,0.13935,6187.91
32.4,0.14112,6274.88
32.7,0.14284,6366.35
33,0.14455,6422.28
33.3,0.14642,6495.82
33.6,0.14821,6595.12
33.9,0.15001,6662.32
34.2,0.15179,6737.04
34.5,0.15364,6811.33
34.8,0.15546,6903.4
35.1,0.15723,6999.47
35.4,0.15901,7035.02
35.7,0.16077,7135.05
36,0.1628,7234.58
36.3,0.16459,7297.88
36.6,0.16641,7382.13
36.9,0.16826,7456.33
37.2,0.17014,7559.06
37.5,0.17197,7619.23
37.8,0.17372,7688.84
38.1,0.17557,7788.17
38.4,0.17745,7858.83
38.7,0.17947,7938
39,0.18132,8033.22
39.3,0.18319,8106.47
39.6,0.18509,8182.06
39.9,0.18694,8258.12
40.2,0.18885,8354.48
40.5,0.19077,8448.4
40.8,0.19281,8505.21
41.1,0.19467,8601.2
41.4,0.19668,8688.79
41.7,0.19864,8766.15
42,0.20057,8855.06
42.3,0.20243,8925.36
42.6,0.20448,9011.14
42.9,0.20653,9094.42
43.2,0.20848,9186.03
43.5,0.21036,9275.58
43.8,0.21226,9335.92
44.1,0.21424,9425.41
44.4,0.2162,9512.54
44.7,0.21819,9593.44
45,0.22024,9695.53
45.3,0.22235,9757.58
45.6,0.22441,9842.36
45.9,0.2264,9922.91
46.2,0.22838,10018.1
46.5,0.23041,10104.2
46.8,0.23244,10176.8
47.1,0.23441,10279.1
47.4,0.23654,10348.8
47.7,0.2388,10421.5
48,0.24107,10523.5
48.3,0.24312,10597.7
48.6,0.24519,10681.8
48.9,0.24724,10744.4
49.2,0.24931,10849.2
49.5,0.25151,10943.7
49.8,0.25345,11003.6
50.1,0.25564,11114.7
50.4,0.2577,11187
50.7,0.25981,11262.3
51,0.26197,11354.9
51.3,0.2642,11442.4
51.6,0.26656,11537.1
51.9,0.26861,11590.1
52.2,0.27075,11695.5
52.5,0.27284,11785.4
52.8,0.275,11847
53.1,0.27723,11953.3
53.4,0.2795,12033.7
53.7,0.2817,12113.2
54,0.284,12183.5
54.3,0.28633,12277.9
54.6,0.2887,12376.9
54.9,0.29095,12429.6
55.2,0.29334,12524
55.5,0.29578,12616.2
55.8,0.29811,12686.1
56.1,0.30058,12783.8
56.4,0.30299,12847
56.7,0.30549,12937.4
57,0.30803,13010.1
57.3,0.31042,13093.3
57.6,0.31298,13196.6
57.9,0.31519,13248.5
58.2,0.31757,13348.4
58.5,0.3201,13420
58.8,0.32272,13493.2
59.1,0.32523,13591
59.4,0.3277,13648
59.7,0.33011,13740.5
60,0.33257,13818.9
60.3,0.33544,13888.6
60.6,0.33862,13953.2
60.9,0.34143,14037.1
61.2,0.34425,14084.7
61.5,0.3498,14118.8
61.8,0.35339,14197.3
62.1,0.35622,14256.5
62.4,0.35911,14319.3
62.692,0.36882,14208.2
62.706,0.38833,13735.3
62.722,0.4077,13284
62.848,0.42051,13058.7
63.148,0.4254,13126.9
63.448,0.42982,13203.5
63.748,0.43374,13249.9
64.048,0.43816,13343.6
64.348,0.44243,13408.3
64.648,0.44838,13420.3
64.948,0.45582,13403
65.248,0.4623,13402.5
65.388,0.47357,13138.9
65.614,0.48452,13000.5
65.914,0.48976,13039.4
66.214,0.49438,13101.1
66.514,0.49883,13179
66.814,0.50309,13220.6
67.114,0.50765,13282.5
67.414,0.51291,13325.7
67.714,0.5183,13355.8
68.014,0.5239,13377.4
68.314,0.52867,13425.4
68.614,0.53302,13473.2
68.914,0.53779,13519.5
69.214,0.54316,13546.3
69.514,0.54816,13600.1
69.814,0.55402,13614.8
70.114,0.56817,13406.4
70.414,0.5771,13339.8
70.714,0.58644,13240.7
71.014,0.59486,13206.9
71.314,0.60049,13219.4
71.614,0.60873,13191.9
71.914,0.61883,13072.4
72.214,0.6261,13052.6
72.514,0.63278,13047
72.814,0.63906,13050.7
73.114,0.64604,13038.7
73.414,0.65918,12888
73.714,0.67159,12745.2
73.828,0.68917,12359.7
73.974,0.70821,11970.1
74.014,0.72465,11591
74.028,0.75528,10982.4
74.03,0.77202,10671.6