Folder: ME-354/FractureLab

File: PC 1.csv
Time (s),Displacement (mm) ,Load (N),Width (mm),Base (mm),Final crack length (mm)
0,0.001,0.38,25.4,6.28,6.85
0.4,0.0015,1.03
0.8,0.0049,5.55
1.2,0.0088,10.07
1.6,0.0133,15.24
2,0.0174,19.11
2.4,0.021,22.34
2.8,0.0249,27.51
3.2,0.0292,30.74
3.6,0.0328,35.26
4,0.0371,39.78
4.4,0.0412,44.30
4.8,0.0453,48.17
5.2,0.0487,50.76
5.6,0.0521,53.99
6,0.056,58.51
6.4,0.0601,62.38
6.8,0.0642,66.26
7.2,0.0687,70.13
7.6,0.0726,74.01
8,0.076,77.88
8.4,0.0801,82.40
8.8,0.0844,85.63
9.2,0.0892,91.45
9.6,0.093,95.97
10,0.0969,98.55
10.4,0.1008,103.72
10.8,0.1046,107.59
11.2,0.1085,110.82
11.6,0.1126,115.34
12,0.1164,119.22
12.4,0.1205,121.80
12.8,0.1242,126.32
13.2,0.1282,130.84
13.6,0.1321,136.01
14,0.136,138.59
14.4,0.1403,143.76
14.8,0.1439,146.34
15.2,0.1478,150.86
15.6,0.1519,155.38
16,0.1555,158.61
16.4,0.1591,163.13
16.8,0.1632,167.01
17.2,0.1671,170.24
17.6,0.1712,174.76
18,0.1746,179.28
18.4,0.1787,183.80
18.8,0.1828,187.03
19.2,0.1871,190.91
19.6,0.191,194.13
20,0.195,198.66
20.4,0.1987,202.53
20.8,0.2023,207.05
21.2,0.2064,210.93
21.6,0.2105,214.80
22,0.2141,218.68
22.4,0.2178,223.20
22.8,0.2218,225.78
23.2,0.2259,230.95
23.6,0.2298,234.82
24,0.2337,238.70
24.4,0.2375,243.22
24.8,0.2416,247.09
25.2,0.2455,251.61
25.6,0.2496,254.84
26,0.2534,259.36
26.4,0.2573,262.59
26.8,0.2609,266.47
27.2,0.265,270.99
27.6,0.2693,275.51
28,0.2732,278.74
28.4,0.2771,284.55
28.8,0.2811,288.43
29.2,0.285,291.01
29.6,0.2886,295.53
30,0.2927,299.41
30.4,0.2968,303.28
30.8,0.3014,307.80
31.2,0.305,311.68
31.6,0.3091,316.20
32,0.3127,318.78
32.4,0.317,323.95
32.8,0.3214,328.47
33.2,0.3252,331.70
33.6,0.3295,336.22
34,0.3334,338.80
34.4,0.3373,343.97
34.8,0.3413,347.20
35.2,0.3454,350.43
35.6,0.3497,356.24
36,0.3538,359.47
36.4,0.3577,363.99
36.8,0.3616,367.87
37.2,0.3661,372.39
37.6,0.3697,376.26
38,0.3738,379.49
38.4,0.3781,384.01
38.8,0.3822,387.89
39.2,0.3859,393.05
39.6,0.3906,396.28
40,0.3945,400.80
40.4,0.399,404.68
40.8,0.4031,408.55
41.2,0.407,412.43
41.6,0.4111,415.66
42,0.4154,420.18
42.4,0.4197,424.05
42.8,0.424,429.22
43.2,0.4279,432.45
43.6,0.4322,436.32
44,0.4365,440.85
44.4,0.4406,444.72
44.8,0.4449,448.60
45.2,0.4495,451.18
45.6,0.4531,455.70
46,0.4574,460.22
46.4,0.4617,463.45
46.8,0.4665,467.97
47.2,0.4706,472.49
47.6,0.4749,475.72
48,0.4788,480.24
48.4,0.4836,483.47
48.8,0.4872,487.99
49.2,0.4913,491.87
49.6,0.4958,495.10
50,0.5008,500.26
50.4,0.5047,502.85
50.8,0.5088,508.01
51.2,0.5131,511.89
51.6,0.5176,515.76
52,0.5217,520.93
52.4,0.5263,524.80
52.8,0.5306,528.68
53.2,0.5347,532.56
53.6,0.539,535.78
54,0.5438,541.60
54.4,0.5481,544.83
54.8,0.5522,548.70
55.2,0.5565,552.58
55.6,0.5613,556.45
56,0.5653,559.68
56.4,0.5694,562.91
56.8,0.5737,567.43
57.2,0.5783,570.66
57.6,0.5826,575.83
58,0.5867,579.06
58.4,0.5917,582.93
58.8,0.5962,587.45
59.2,0.6003,591.33
59.6,0.6046,595.85
60,0.6096,601.01
60.4,0.6144,605.54
60.8,0.6185,608.76
61.2,0.6233,611.99
61.6,0.6278,617.16
62,0.6321,619.74
62.4,0.6369,625.56
62.8,0.6408,628.79
63.2,0.6453,632.66
63.6,0.6501,636.54
64,0.6546,639.76
64.4,0.6589,644.93
64.8,0.6633,648.16
65.2,0.6676,652.04
65.6,0.6726,656.56
66,0.6771,659.79
66.4,0.6817,664.95
66.8,0.6862,666.89
67.2,0.6905,672.06
67.6,0.6953,676.58
68,0.7001,679.81
68.4,0.7048,683.68
68.8,0.7094,688.20
69.2,0.7139,692.08
69.6,0.7187,696.60
70,0.723,700.47
70.4,0.7282,704.35
70.8,0.7325,708.22
71.2,0.7375,712.74
71.6,0.7425,715.33
72,0.7471,719.85
72.4,0.7512,723.72
72.8,0.7559,728.24
73.2,0.7607,732.77
73.6,0.7657,736.64
74,0.7703,739.87
74.4,0.7753,744.39
74.8,0.7798,747.62
75.2,0.7843,752.14
75.6,0.7896,757.31
76,0.7941,761.18
76.4,0.7989,763.77
76.8,0.8034,767.64
77.2,0.8087,772.16
77.6,0.8137,776.04
78,0.8184,781.20
78.4,0.8234,784.43
78.8,0.8284,788.95
79.2,0.8339,793.47
79.6,0.8386,796.06
80,0.8439,801.87
80.4,0.8489,805.10
80.8,0.8536,808.98
81.2,0.8586,812.85
81.6,0.8639,816.08
82,0.8695,821.25
82.4,0.8748,825.12
82.8,0.88,828.35
83.2,0.8848,832.87
83.6,0.8902,837.39
84,0.8952,841.27
84.4,0.9002,845.79
84.8,0.9052,848.37
85.2,0.9102,852.89
85.6,0.9159,858.06
86,0.9209,861.29
86.4,0.9263,865.16
86.8,0.9313,870.33
87.2,0.9363,872.27
87.6,0.9418,876.14
88,0.9468,880.66
88.4,0.952,885.18
88.8,0.9577,889.06
89.2,0.9627,892.93
89.6,0.9684,897.46
90,0.9736,900.68
90.4,0.9788,906.50
90.8,0.9845,909.08
91.2,0.9899,913.60
91.6,0.9954,918.12
92,1.0008,922.00
92.4,1.0065,925.87
92.8,1.0118,929.10
93.2,1.0172,932.98
93.6,1.0231,938.14
94,1.0288,942.02
94.4,1.034,945.89
94.8,1.039,949.12
95.2,1.0454,953.00
95.6,1.0508,956.87
96,1.0567,960.75
96.4,1.062,966.56
96.8,1.0681,969.14
97.2,1.0733,973.02
97.6,1.0797,977.54
98,1.0856,980.77
98.4,1.0913,985.29
,,
,,
,,
,,
,,
,,
,,
,,
,,
,,
,,
,,
,,
,,
,,
,,
,,
,,
,,
,,
,,
,,
,,
,,
,,
,,
,,
,,
,,
,,
,,
,,
,,
,,
,,
,,
,,
,,
,,
,,
,,
,,
,,
,,
,,
,,
,,
,,
,,
,,
,,
,,
,,
,,
,,
,,
,,
,,
,,
,,
,,
,,
,,
,,
,,
,,
,,
,,
,,
,,
,,

File: PC 2.csv
Time (s),Displacement (mm) ,Load (N),Width (mm),Base (mm),Final crack length (mm)
0,-0.0007,-0.81,25.4,6.28,5.48
0.4,0.0004,1.13
0.8,0.0045,5.65
1.2,0.0081,10.82
1.6,0.0122,14.69
2,0.0154,18.57
2.4,0.0183,22.44
2.8,0.022,26.96
3.2,0.0252,32.13
3.6,0.0286,35.36
4,0.0315,38.59
4.4,0.0349,43.75
4.8,0.0386,47.63
5.2,0.0417,51.50
5.6,0.0445,54.73
6,0.0481,59.90
6.4,0.0508,63.78
6.8,0.054,68.30
7.2,0.0572,72.17
7.6,0.0608,76.05
8,0.0638,79.28
8.4,0.0672,83.80
8.8,0.0704,88.32
9.2,0.0731,90.90
9.6,0.0758,95.42
10,0.079,98.65
10.4,0.0822,102.53
10.8,0.0856,107.69
11.2,0.0885,110.28
11.6,0.0922,114.80
12,0.0954,118.03
12.4,0.0988,123.19
12.8,0.102,126.42
13.2,0.1054,132.88
13.6,0.1085,135.46
14,0.1117,139.99
14.4,0.1149,143.86
14.8,0.1176,147.09
15.2,0.1213,151.61
15.6,0.1244,155.49
16,0.1276,160.01
16.4,0.1303,163.88
16.8,0.134,167.11
17.2,0.1369,170.99
17.6,0.1399,175.51
18,0.1433,179.38
18.4,0.1467,183.90
18.8,0.1497,187.78
19.2,0.1528,192.30
19.6,0.1562,194.88
20,0.159,199.40
20.4,0.1619,202.63
20.8,0.1653,207.15
21.2,0.1687,210.38
21.6,0.1715,216.19
22,0.1753,219.42
22.4,0.1785,223.30
22.8,0.1812,227.17
23.2,0.1844,231.69
23.6,0.1878,234.92
24,0.1912,239.44
24.4,0.1942,243.32
24.8,0.1974,247.19
25.2,0.2008,251.07
25.6,0.2035,255.59
26,0.2069,259.47
26.4,0.2108,263.34
26.8,0.2135,267.22
27.2,0.2169,271.09
27.6,0.2203,275.61
28,0.2233,278.19
28.4,0.2267,283.36
28.8,0.2299,287.88
29.2,0.2333,291.76
29.6,0.2364,294.99
30,0.2396,298.86
30.4,0.2428,303.38
30.8,0.2462,308.55
31.2,0.2494,311.78
31.6,0.2528,315.65
32,0.256,318.88
32.4,0.2592,323.40
32.8,0.2626,328.57
33.2,0.266,331.80
33.6,0.2689,336.32
34,0.2723,339.55
34.4,0.2753,342.78
34.8,0.2787,347.95
35.2,0.2823,351.82
35.6,0.2853,356.99
36,0.2889,360.22
36.4,0.2921,362.80
36.8,0.2955,367.97
37.2,0.2989,372.49
37.6,0.3023,376.36
38,0.3055,380.24
38.4,0.3089,385.40
38.8,0.3125,387.99
39.2,0.3153,391.86
39.6,0.3191,395.74
40,0.3221,400.90
40.4,0.3255,403.49
40.8,0.3289,408.01
41.2,0.3319,411.24
41.6,0.3355,415.76
42,0.3384,420.28
42.4,0.3423,424.16
42.8,0.3457,427.38
43.2,0.3489,432.55
43.6,0.3521,436.43
44,0.3555,440.30
44.4,0.3587,444.18
44.8,0.3621,447.41
45.2,0.3657,451.93
45.6,0.3693,455.16
46,0.3723,460.32
46.4,0.3759,464.20
46.8,0.3793,468.72
47.2,0.3825,472.59
47.6,0.3862,476.47
48,0.3893,480.99
48.4,0.3925,484.22
48.8,0.3964,488.74
49.2,0.3998,492.61
49.6,0.4032,495.84
50,0.4064,499.72
50.4,0.4098,504.24
50.8,0.4136,508.11
51.2,0.4168,511.99
51.6,0.4202,516.51
52,0.4236,520.39
52.4,0.4275,524.26
52.8,0.4307,528.78
53.2,0.4339,532.01
53.6,0.4375,535.89
54,0.4411,539.76
54.4,0.4445,544.28
54.8,0.4479,548.16
55.2,0.4511,551.39
55.6,0.4548,556.55
56,0.4582,560.43
56.4,0.4616,564.30
56.8,0.4652,568.18
57.2,0.4688,572.05
57.6,0.472,577.22
58,0.4754,580.45
58.4,0.4795,584.97
58.8,0.4827,589.49
59.2,0.4863,593.37
59.6,0.4897,595.95
60,0.4927,599.82
60.4,0.4963,603.70
60.8,0.5,607.57
61.2,0.5034,610.80
61.6,0.507,615.32
62,0.5106,619.84
62.4,0.5143,623.72
62.8,0.5179,627.60
63.2,0.5216,631.47
63.6,0.5259,637.28
64,0.5291,639.87
64.4,0.5325,645.03
64.8,0.5361,648.91
65.2,0.54,652.78
65.6,0.5436,657.30
66,0.5475,660.53
66.4,0.5513,665.05
66.8,0.5547,668.28
67.2,0.5584,673.45
67.6,0.5615,677.32
68,0.5647,680.55
68.4,0.5688,684.43
68.8,0.5724,688.30
69.2,0.5763,693.47
69.6,0.5802,696.70
70,0.5836,700.58
70.4,0.5874,704.45
70.8,0.5911,708.33
71.2,0.5947,712.20
71.6,0.5981,716.72
72,0.6017,719.30
72.4,0.6056,725.12
72.8,0.6092,728.99
73.2,0.6133,732.22
73.6,0.617,736.10
74,0.6206,739.97
74.4,0.6245,744.49
74.8,0.6286,749.01
75.2,0.6324,751.60
75.6,0.6361,756.76
76,0.6395,759.99
76.4,0.6435,763.87
76.8,0.6474,769.03
77.2,0.6517,772.91
77.6,0.6556,776.78
78,0.6592,780.66
78.4,0.6629,785.18
78.8,0.6669,788.41
79.2,0.6706,792.93
79.6,0.6747,797.45
80,0.6785,800.03
80.4,0.6829,803.91
80.8,0.6865,809.08
81.2,0.6906,812.95
81.6,0.6942,816.83
82,0.6985,820.06
82.4,0.7024,823.93
82.8,0.7063,829.10
83.2,0.7101,832.97
83.6,0.7142,836.20
84,0.7181,841.37
84.4,0.7222,844.60
84.8,0.726,849.12
85.2,0.7306,852.99
85.6,0.734,857.51
86,0.7385,861.39
86.4,0.7424,865.91
86.8,0.7465,869.14
87.2,0.7506,873.66
87.6,0.7549,877.54
88,0.759,881.41
88.4,0.7633,885.29
88.8,0.7674,890.45
89.2,0.7719,893.04
89.6,0.7758,897.56
90,0.7796,901.43
90.4,0.7842,905.95
90.8,0.788,909.18
91.2,0.7924,913.06
91.6,0.7964,916.93
92,0.8008,920.16
92.4,0.8055,925.97
92.8,0.8094,929.20
93.2,0.8146,933.08
93.6,0.8214,936.95
94,0.8273,940.18
94.4,0.8342,945.35
94.8,0.8401,949.87
95.2,0.8548,949.22

File: PC 3.csv
Time (s),Displacement (mm) ,Load (N),Width (mm),Base (mm),Final crack length (mm)
0,-0.0008,-0.56,25.4,6.28,5.57
0.4,0.0003,1.37
0.8,0.0033,5.25
1.2,0.0074,9.12
1.6,0.0114,13.00
2,0.0151,18.17
2.4,0.0187,22.04
2.8,0.0219,25.92
3.2,0.0248,30.44
3.6,0.0285,34.96
4,0.0321,38.83
4.4,0.0357,42.71
4.8,0.0394,46.58
5.2,0.0426,49.81
5.6,0.0457,53.69
6,0.0494,58.21
6.4,0.0528,62.73
6.8,0.0562,65.96
7.2,0.0598,71.12
7.6,0.0632,75.00
8,0.0669,78.87
8.4,0.0698,82.75
8.8,0.0735,87.27
9.2,0.0766,90.50
9.6,0.08,94.37
10,0.0841,98.90
10.4,0.0869,102.77
10.8,0.0907,107.29
11.2,0.0939,111.17
11.6,0.0973,113.75
12,0.1009,118.92
12.4,0.1046,123.44
12.8,0.108,126.67
13.2,0.1112,130.54
13.6,0.1148,135.06
14,0.1184,139.58
14.4,0.1216,141.52
14.8,0.1255,146.69
15.2,0.1284,151.21
15.6,0.1321,155.08
16,0.1357,158.31
16.4,0.1389,163.48
16.8,0.1425,166.71
17.2,0.1457,169.94
17.6,0.1491,175.10
18,0.1523,178.33
18.4,0.1562,182.21
18.8,0.1598,187.38
19.2,0.163,191.25
19.6,0.1662,195.13
20,0.1696,199.00
20.4,0.1732,202.88
20.8,0.1766,208.04
21.2,0.1798,211.27
21.6,0.1832,215.15
22,0.1864,219.67
22.4,0.1895,223.54
22.8,0.1932,227.42
23.2,0.1961,231.94
23.6,0.1998,236.46
24,0.2032,239.04
24.4,0.2064,242.92
24.8,0.2095,247.44
25.2,0.2129,251.96
25.6,0.2164,255.83
26,0.2198,258.42
26.4,0.2232,263.58
26.8,0.2264,267.46
27.2,0.2298,271.33
27.6,0.2329,275.21
28,0.2363,279.73
28.4,0.2398,282.96
28.8,0.2427,286.84
29.2,0.2457,290.06
29.6,0.2493,295.23
30,0.2527,297.81
30.4,0.2559,301.69
30.8,0.2597,304.92
31.2,0.2629,310.09
31.6,0.2659,313.96
32,0.2693,317.84
32.4,0.2727,322.36
32.8,0.2768,327.52
33.2,0.28,332.04
33.6,0.2834,336.56
34,0.2872,341.09
34.4,0.29,343.02
34.8,0.2936,348.19
35.2,0.297,352.07
35.6,0.3006,355.94
36,0.304,359.17
36.4,0.3068,363.69
36.8,0.3106,368.21
37.2,0.3136,372.09
37.6,0.3175,375.96
38,0.3209,379.84
38.4,0.3243,383.07
38.8,0.3274,388.88
39.2,0.3309,390.82
39.6,0.3343,394.69
40,0.3381,399.21
40.4,0.3418,403.73
40.8,0.3452,406.96
41.2,0.3483,410.84
41.6,0.352,416.00
42,0.3552,418.59
42.4,0.3588,423.75
42.8,0.3624,426.98
43.2,0.3663,430.86
43.6,0.3695,434.73
44,0.3729,439.25
44.4,0.3767,441.84
44.8,0.3802,447.00
45.2,0.3838,452.17
45.6,0.3874,455.40
46,0.3908,458.63
46.4,0.3942,463.15
46.8,0.3979,467.02
47.2,0.4011,471.55
47.6,0.4047,475.42
48,0.4083,479.94
48.4,0.4117,481.88
48.8,0.4156,487.69
49.2,0.4185,491.57
49.6,0.4226,495.44
50,0.426,499.96
50.4,0.4297,503.84
50.8,0.4331,507.07
51.2,0.4365,511.59
51.6,0.4406,515.46
52,0.4444,519.34
52.4,0.4479,524.50
52.8,0.4517,526.44
53.2,0.4551,530.96
53.6,0.4588,534.84
54,0.4622,538.07
54.4,0.4658,543.23
54.8,0.4699,547.75
55.2,0.4735,552.28
55.6,0.4767,554.86
56,0.4803,559.38
56.4,0.4837,563.90
56.8,0.4878,569.07
57.2,0.4912,571.01
57.6,0.4949,574.88
58,0.499,580.05
58.4,0.5026,583.28
58.8,0.506,587.15
59.2,0.5101,591.03
59.6,0.5133,595.55
60,0.5176,600.07
60.4,0.521,603.94
60.8,0.5251,608.46
61.2,0.5287,611.69
61.6,0.5324,616.21
62,0.5362,620.73
62.4,0.5396,623.32
62.8,0.5437,627.84
63.2,0.5474,631.71
63.6,0.551,636.24
64,0.5549,640.76
64.4,0.5589,644.63
64.8,0.5626,648.51
65.2,0.5664,651.09
65.6,0.5705,656.26
66,0.5739,659.49
66.4,0.578,664.01
66.8,0.5819,668.53
67.2,0.5855,671.76
67.6,0.5892,675.63
68,0.5932,679.51
68.4,0.5969,684.03
68.8,0.601,687.26
69.2,0.6048,691.78
69.6,0.6085,696.30
70,0.6123,698.88
70.4,0.6164,703.40
70.8,0.6198,707.28
71.2,0.6241,711.80
71.6,0.6282,716.32
72,0.6314,719.55
72.4,0.6357,724.07
72.8,0.6394,727.94
73.2,0.6435,732.47
73.6,0.6475,736.34
74,0.6514,740.22
74.4,0.6557,744.09
74.8,0.6594,747.97
75.2,0.6632,752.49
75.6,0.6669,756.36
76,0.6709,760.24
76.4,0.6753,764.11
76.8,0.6791,767.99
77.2,0.6832,772.51
77.6,0.6871,776.38
78,0.6916,780.90
78.4,0.6955,784.13
78.8,0.6996,788.65
79.2,0.7039,792.53
79.6,0.7075,795.11
80,0.7116,798.99
80.4,0.7157,802.86
80.8,0.7202,807.38
81.2,0.7239,811.26
81.6,0.7284,814.49
82,0.7323,819.01
82.4,0.7366,822.88
82.8,0.7409,826.76
83.2,0.7448,830.63
83.6,0.7495,836.45
84,0.7534,840.97
84.4,0.7582,844.84
84.8,0.7618,848.72
85.2,0.7661,853.88
85.6,0.7702,856.47
86,0.775,861.63
86.4,0.7786,864.22
86.8,0.7829,868.74
87.2,0.7873,872.61
87.6,0.7916,877.13
88,0.7959,881.65
88.4,0.8004,883.59
88.8,0.805,888.76
89.2,0.8091,892.63
89.6,0.8136,896.51
90,0.8177,901.03
90.4,0.822,904.91
90.8,0.827,908.13
91.2,0.8311,912.01
91.6,0.835,916.53
92,0.84,919.76
92.4,0.8441,924.28
92.8,0.8488,928.16
93.2,0.8527,932.68
93.6,0.8572,935.26
94,0.862,939.78
94.4,0.8663,944.30
94.8,0.8711,948.18
95.2,0.8756,952.70
95.6,0.88,956.57
96,0.8843,959.80
96.4,0.8888,963.68
96.8,0.8934,968.20
97.2,0.8984,972.72
97.6,0.9024,977.24
98,0.9072,980.47
98.4,0.9115,984.34
98.8,0.9161,988.86
99.2,0.9208,992.74
99.6,0.9254,995.97
100,0.9308,1001.78
100.4,0.9349,1005.01
100.8,0.9399,1008.89
101.2,0.9442,1012.76
101.6,0.9492,1017.28
102,0.954,1020.51
102.4,0.9586,1025.03
102.8,0.9638,1028.26
103.2,0.9683,1032.78
103.6,0.9733,1036.66
104,0.9783,1041.18
104.4,0.9829,1045.05
104.8,0.9876,1048.28
105.2,0.9924,1052.80
105.6,0.9974,1056.68
106,1.0022,1060.55
106.4,1.0072,1064.43
106.8,1.0119,1069.59
,,
,,
,,
,,
,,
,,
,,
,,
,,
,,
,,
,,
,,
,,
,,
,,
,,
,,
,,
,,
,,
,,
,,
,,
,,
,,
,,
,,
,,
,,
,,
,,
,,
,,
,,
,,
,,
,,
,,
,,
,,
,,
,,
,,
,,
,,
,,
,,
,,
,,
,,
,,
,,
,,
,,
,,
,,
,,
,,
,,
,,
,,
,,
,,
,,
,,
,,
,,
,,
,,
,,
,,
,,
,,
,,
,,
,,
,,
,,
,,
,,
,,
,,

File: PMMA 1.csv
Time (s),Displacement (mm) ,Load (N),Width (mm),Base (mm),Final crack length (mm)
0,0.0023,-1.14478,25,8.53,7.1
0.1,0.00231,-1.15156
0.2,0.00235,-0.84531
0.3,0.00272,-0.71097
0.4,0.00361,0.12439
0.5,0.00457,1.05108
0.6,0.00529,1.70744
0.7,0.00596,2.13968
0.8,0.00659,3.09628
0.9,0.00738,3.78196
1,0.00802,4.27822
1.1,0.00886,5.14269
1.2,0.00961,5.86269
1.3,0.01047,6.31237
1.4,0.01122,7.05764
1.5,0.01205,8.00154
1.6,0.01288,8.62185
1.7,0.01372,9.56235
1.8,0.01463,10.13833
1.9,0.01548,10.94068
2,0.01639,11.3416
2.1,0.01732,12.05849
2.2,0.01818,12.82671
2.3,0.01916,13.45641
2.4,0.0201,13.77351
2.5,0.02111,14.72114
2.6,0.02206,15.08218
2.7,0.023,15.81837
2.8,0.02394,16.48388
2.9,0.02483,17.35903
3,0.02579,17.92222
3.1,0.0268,18.8878
3.2,0.02776,19.66586
3.3,0.02878,20.42975
3.4,0.02973,21.67407
3.5,0.03077,22.62379
3.6,0.03178,23.09729
3.7,0.03278,24.08599
3.8,0.03388,24.65179
3.9,0.03489,25.67009
4,0.0359,26.47036
4.1,0.03702,27.71485
4.2,0.03796,28.79984
4.3,0.03902,29.55363
4.4,0.04007,30.66947
4.5,0.04115,31.85209
4.6,0.0422,33.00138
4.7,0.04335,33.13739
4.8,0.04442,34.64483
4.9,0.04555,34.98527
5,0.04659,35.41292
5.1,0.04775,36.39535
5.2,0.04891,37.39465
5.3,0.05009,38.52206
5.4,0.05121,41.00766
5.5,0.0522,40.71189
5.6,0.05322,43.33162
5.7,0.05437,45.40079
5.8,0.05553,48.57234
5.9,0.05659,50.60286
6,0.05773,53.34846
6.1,0.05884,55.99457
6.2,0.05995,59.75863
6.3,0.06116,60.98085
6.4,0.06219,63.66657
6.5,0.0634,66.2074
6.6,0.06464,67.34251
6.7,0.06578,69.24298
6.8,0.06698,70.61695
6.9,0.06819,72.15218
7,0.06935,73.02072
7.1,0.07047,74.26044
7.2,0.07158,75.16439
7.3,0.07284,76.67005
7.4,0.07407,77.81199
7.5,0.07527,79.52032
7.6,0.0764,80.1192
7.7,0.07756,81.42245
7.8,0.07877,82.72708
7.9,0.0799,84.05494
8,0.08106,84.3689
8.1,0.08232,86.02249
8.2,0.08351,86.78911
8.3,0.08463,87.28172
8.4,0.08582,88.35379
8.5,0.08712,89.33047
8.6,0.08849,90.48584
8.7,0.08966,92.33984
8.8,0.09093,94.80777
8.9,0.09224,96.73262
9,0.09346,99.83308
9.1,0.09468,102.889
9.2,0.09585,107.558
9.3,0.09707,110.597
9.4,0.09825,114.758
9.5,0.09945,118.158
9.6,0.10065,122.809
9.7,0.10189,126.173
9.8,0.10322,127.684
9.9,0.10447,130.573
10,0.10577,132.828
10.1,0.1072,135.281
10.2,0.10844,137.2458
10.3,0.10967,138.725
10.4,0.11089,140.734
10.5,0.11221,142.388
10.6,0.11351,143.229
10.7,0.11473,144.942
10.8,0.11603,146.946
10.9,0.11734,148.522
11,0.11851,150.274
11.1,0.11982,152.499
11.2,0.12114,154.241
11.3,0.1225,155.162
11.4,0.12378,156.742
11.5,0.12506,158.02
11.6,0.12634,159.172
11.7,0.1276,160.549
11.8,0.12883,161.671
11.9,0.13002,163.717
12,0.1314,165.296
12.1,0.13276,168.184
12.2,0.13402,170.552
12.3,0.13532,173.1944
12.4,0.13664,174.184
12.5,0.13789,176.963
12.6,0.13919,178.831
12.7,0.14057,180.7299
12.8,0.14193,181.5435
12.9,0.14323,183.256
13,0.14453,184.476
13.1,0.14592,186.1956
13.2,0.14727,187.142
13.3,0.14864,189.277
13.4,0.15002,191.931
13.5,0.15133,193.5488
13.6,0.15263,196.069
13.7,0.15396,200.312
13.8,0.15529,202.318
13.9,0.15656,205.52
14,0.15789,208.427
14.1,0.15926,210.822
14.2,0.16059,214.05
14.3,0.16197,215.358
14.4,0.16332,218.173
14.5,0.16473,220.048
14.6,0.16612,220.997
14.7,0.16753,221.584
14.8,0.16888,223.511
14.9,0.17023,224.133
15,0.17163,225.02
15.1,0.17304,225.142
15.2,0.17438,226.046
15.3,0.17586,226.643
15.4,0.17719,227.048
15.5,0.17864,227.701
15.6,0.17999,228.558
15.7,0.18146,229.487
15.8,0.18284,230.731
15.9,0.18415,232.103
16,0.18555,233.459
16.1,0.18695,234.773
16.2,0.18838,236.782
16.3,0.18975,237.62
16.4,0.19116,238.032
16.5,0.19264,240.184
16.6,0.19407,241.988
16.7,0.19546,242.7457
16.8,0.19689,243.962
16.9,0.19826,246.123
17,0.19961,247.03
17.1,0.201,248.31
17.2,0.20242,251.426
17.3,0.20398,253.046
17.4,0.20534,255.98
17.5,0.2068,256.208
17.6,0.2082,257.211
17.7,0.20978,259.076
17.8,0.21129,260.069
17.9,0.21272,261.0466
18,0.2142,262.5517
18.1,0.21596,263.568
18.2,0.21893,260.589
18.3,0.22212,257.54
18.4,0.2267,249.088
18.5,0.23113,242.085
18.6,0.23541,237.143
18.7,0.23994,230.573
18.8,0.2459,225.73
18.9,0.2515,220.847
19,0.25756,205.511
19.1,0.26366,187.146
19.2,0.26951,177.851
19.3,0.27511,164.544
19.4,0.28046,156.117
19.5,0.28553,147.968
19.6,0.29041,140.194
19.7,0.29523,132.2885
19.8,0.2997,121.065
19.9,0.30414,105.284
20,0.30852,94.16569
20.1,0.31285,88.76471
20.2,0.31693,86.16821
20.3,0.32093,83.42893
20.4,0.32501,79.95058
20.5,0.32903,76.80898
20.6,0.33279,73.94583
20.7,0.33671,70.68436
20.8,0.34068,66.64494
20.9,0.34449,62.49063
21,0.34815,55.73835
21.1,0.35183,50.45129
21.2,0.35547,44.59428
21.3,0.35894,40.83062
21.4,0.36255,38.64299
21.5,0.36618,36.90435
21.6,0.36971,35.9212
21.7,0.37296,34.38946
21.8,0.37625,33.06725
21.9,0.37953,31.48973
22,0.38292,30.36126
22.1,0.38626,28.66372
22.2,0.38929,27.4732
22.3,0.39231,26.6715
22.4,0.3955,26.10674
22.5,0.39855,24.52463
22.6,0.40159,23.18184
22.7,0.40456,21.96024
22.8,0.40763,21.49035
22.9,0.4106,20.958
23,0.41351,19.76074
23.1,0.41632,18.99047
23.2,0.41919,17.99379
23.3,0.42197,17.38358
23.4,0.42481,16.78284
23.5,0.42765,16.09141
23.6,0.43042,15.92413
23.7,0.43319,15.16038
23.8,0.43583,14.78737
23.9,0.43854,14.70335
24,0.4413,14.05695
24.1,0.44402,13.64147
24.2,0.44665,13.32614
24.3,0.44931,12.86127
24.4,0.452,12.58231
24.5,0.45482,12.28763
24.6,0.4574,11.58866
24.7,0.45984,11.15088
24.8,0.46259,11.31248
24.9,0.46527,10.61778
25,0.46778,10.528
25.1,0.47032,10.49383
25.2,0.47277,9.58425
25.3,0.47533,10.14055
25.4,0.47789,9.77393
25.5,0.48041,9.45186
25.6,0.48306,9.14812
25.7,0.48564,9.13077
25.8,0.48814,8.80347
25.9,0.49056,7.93781
26,0.49307,8.11045
26.1,0.49569,8.01172
26.2,0.49822,7.33575
26.3,0.50065,7.31572
26.4,0.50312,5.98535
26.5,0.50554,5.71495
26.6,0.50796,5.513
26.7,0.51033,5.05957
26.8,0.51273,5.14158
26.9,0.51528,4.83694
27,0.5177,4.55304
27.1,0.52005,4.18103
27.2,0.52261,4.3866
27.3,0.52525,3.99111
27.4,0.52773,4.0216
27.5,0.53012,3.60681
27.6,0.53242,2.88637
27.7,0.53486,2.92359
27.8,0.53721,3.18551
27.9,0.53964,2.77555
28,0.54213,2.35032
28.1,0.5445,1.763
28.2,0.54674,2.04383
28.3,0.54907,1.54725
28.4,0.55149,1.70581
28.5,0.554,1.29519
28.6,0.55638,0.94917
28.7,0.55879,0.75749
28.8,0.56129,0.80139
28.9,0.56371,0.55477
29,0.56595,0.84036
29.1,0.5683,1.59511
29.2,0.57069,0.86298
29.3,0.57307,1.02383
29.4,0.57541,0.08106
29.404,0.5755,-0.0321

File: PMMA 2.csv
Time (s),Displacement (mm) ,Load (N),Width (mm),Base (mm),Final crack length (mm)
0,0.00212,-0.42593,25,8.53,7.33
0.1,0.00211,-0.46044
0.2,0.00217,-0.5906
0.3,0.00255,-0.20579
0.4,0.00383,0.30603
0.5,0.00492,1.0351
0.6,0.00577,1.20252
0.7,0.00654,1.52988
0.8,0.00722,1.86178
0.9,0.00788,1.97184
1,0.00869,2.30846
1.1,0.00956,2.5115
1.2,0.01032,2.59582
1.3,0.01107,2.83071
1.4,0.01188,3.23653
1.5,0.01266,3.39793
1.6,0.01351,3.6301
1.7,0.01428,3.71885
1.8,0.01517,4.08612
1.9,0.01602,4.23633
2,0.01679,4.43843
2.1,0.01751,4.76079
2.2,0.01826,5.10369
2.3,0.01906,5.18215
2.4,0.01971,5.41437
2.5,0.02044,5.63463
2.6,0.02123,5.88996
2.7,0.022,6.21227
2.8,0.02276,6.53827
2.9,0.02347,6.7918
3,0.02424,7.05471
3.1,0.0251,7.48775
3.2,0.02594,7.9415
3.3,0.02674,8.31532
3.4,0.02753,8.67232
3.5,0.02838,9.16009
3.6,0.02923,9.33659
3.7,0.02999,9.90859
3.8,0.03087,10.53895
3.9,0.03173,10.95071
4,0.03253,11.32771
4.1,0.03325,11.84888
4.2,0.03411,12.79681
4.3,0.03486,13.56261
4.4,0.03579,13.9093
4.5,0.03655,14.92809
4.6,0.03747,15.34284
4.7,0.0383,16.4209
4.8,0.0392,17.27127
4.9,0.03997,17.75693
5,0.04087,18.94667
5.1,0.04175,19.1358
5.2,0.04264,19.85487
5.3,0.04361,20.83176
5.4,0.04452,21.46017
5.5,0.04546,23.01155
5.6,0.04637,23.98918
5.7,0.04729,24.96361
5.8,0.04816,25.87938
5.9,0.04919,26.95177
6,0.05018,28.62246
6.1,0.05112,29.06673
6.2,0.05203,30.5196
6.3,0.05301,32.14748
6.4,0.05393,32.83523
6.5,0.05493,34.49924
6.6,0.05592,37.14191
6.7,0.05695,38.53862
6.8,0.05786,41.52362
6.9,0.05879,43.50007
7,0.05975,46.59932
7.1,0.06082,49.41171
7.2,0.06178,52.46318
7.3,0.06277,53.99008
7.4,0.06386,57.50953
7.5,0.06487,59.82951
7.6,0.06588,62.45425
7.7,0.06687,64.49756
7.8,0.06787,66.2637
7.9,0.06899,67.96707
8,0.07012,69.60706
8.1,0.07122,71.70075
8.2,0.07228,72.38449
8.3,0.07333,73.65185
8.4,0.07442,74.61473
8.5,0.07543,75.42482
8.6,0.07649,76.14585
8.7,0.07766,76.93129
8.8,0.07867,78.23301
8.9,0.07965,79.32011
9,0.08077,80.27444
9.1,0.0818,81.55319
9.2,0.08283,83.25682
9.3,0.08398,85.5361
9.4,0.08509,87.04494
9.5,0.08619,89.70879
9.6,0.0873,90.75203
9.7,0.08842,92.05247
9.8,0.08955,94.95973
9.9,0.09071,96.52115
10,0.09184,98.10729
10.1,0.09297,99.88085
10.2,0.09409,101.3337
10.3,0.09532,103.0465
10.4,0.0964,105.158
10.5,0.09743,106.5563
10.6,0.09858,108.1
10.7,0.09982,111.381
10.8,0.10102,113.802
10.9,0.10215,116.963
11,0.10329,119.1926
11.1,0.10445,122.728
11.2,0.10555,123.398
11.3,0.10673,125.671
11.4,0.10797,128.573
11.5,0.10913,129.732
11.6,0.11024,130.671
11.7,0.11137,131.473
11.8,0.11263,132.998
11.9,0.1139,134.172
12,0.11516,135.265
12.1,0.11631,135.98
12.2,0.11761,138.1161
12.3,0.11882,138.705
12.4,0.11999,140.358
12.5,0.12118,142.1132
12.6,0.1223,145.0209
12.7,0.12351,147.475
12.8,0.12468,150.772
12.9,0.12586,153.118
13,0.12721,156.628
13.1,0.12848,158.246
13.2,0.12967,160.693
13.3,0.13104,162.735
13.4,0.13235,163.732
13.5,0.1337,165.408
13.6,0.13495,166.959
13.7,0.13605,168.32
13.8,0.13732,169.468
13.9,0.1386,171.606
14,0.13988,172.636
14.1,0.14113,174.129
14.2,0.14241,177.201
14.3,0.14371,179.112
14.4,0.14501,181.145
14.5,0.14631,183.242
14.6,0.14765,184.952
14.7,0.14904,187.8222
14.8,0.15036,189.639
14.9,0.1516,191.77
15,0.15282,192.908
15.1,0.15418,194.073
15.2,0.15537,196.194
15.3,0.15666,196.843
15.4,0.15797,198.718
15.5,0.15937,200.477
15.6,0.16069,201.519
15.7,0.16197,203.583
15.8,0.16335,204.5
15.9,0.16485,205.729
16,0.16629,206.5663
16.1,0.16845,206.1436
16.2,0.17041,206.249
16.3,0.17229,206.541
16.4,0.17405,207.888
16.5,0.17572,207.934
16.6,0.1774,207.838
16.7,0.17911,209.401
16.8,0.18076,210.591
16.9,0.18239,210.789
17,0.18412,210.666
17.1,0.18597,212.155
17.2,0.18778,212.265
17.3,0.18956,212.637
17.4,0.19141,212.908
17.5,0.19325,212.736
17.6,0.19504,212.803
17.7,0.19694,212.945
17.8,0.19908,211.877
17.9,0.20143,211.491
18,0.20387,211.297
18.1,0.20616,210.6786
18.2,0.20847,210.121
18.3,0.21083,208.547
18.4,0.21329,207.321
18.5,0.21594,204.969
18.6,0.21881,201.856
18.7,0.22178,199.671
18.8,0.22507,194.625
18.9,0.22844,190.351
19,0.2319,184.066
19.1,0.23591,177.098
19.2,0.2401,171.058
19.3,0.24442,165.421
19.4,0.24876,159.127
19.5,0.25298,147.962
19.6,0.25709,139.264
19.7,0.26105,134.9825
19.8,0.26516,131.343
19.9,0.26922,126.6162
20,0.2732,119.017
20.1,0.27715,110.445
20.2,0.28112,102.927
20.3,0.28514,96.82376
20.4,0.28913,92.8735
20.5,0.29298,86.96165
20.6,0.29687,80.65956
20.7,0.30075,77.76926
20.8,0.30447,74.88246
20.9,0.30819,72.48228
21,0.31175,69.06792
21.1,0.31549,63.4374
21.2,0.31917,56.56677
21.3,0.32274,49.97287
21.4,0.32638,43.95182
21.5,0.32988,37.10701
21.6,0.33341,33.15033
21.7,0.33677,30.15052
21.8,0.34019,27.60592
21.9,0.34361,25.92677
22,0.34696,23.66149
22.098,0.35026,21.35278