Folder: ME-354/FractureLab (part 2)

File: PMMA 3.csv
Time (s),Displacement (mm) ,Load (N),Width (mm),Base (mm),Final crack length (mm)
0,0.00061,-0.01575,25,8.53,5.54
0.1,0.00061,0.21838
0.2,0.00064,-0.05117
0.3,0.00073,0.04206
0.4,0.00114,0.39357
0.5,0.0018,0.99005
0.6,0.00245,1.47319
0.7,0.00295,2.43242
0.8,0.00355,2.85138
0.9,0.00419,3.60042
1,0.00482,3.7854
1.1,0.0055,4.29322
1.2,0.00621,4.97928
1.3,0.00693,5.34206
1.4,0.00766,6.05359
1.5,0.0084,5.76452
1.6,0.00911,6.81875
1.7,0.00982,6.99175
1.8,0.0106,7.29806
1.9,0.01144,7.81023
2,0.01205,8.143
2.1,0.01281,8.63604
2.2,0.01356,8.61805
2.3,0.01429,9.11908
2.4,0.01499,9.22419
2.5,0.01575,9.63124
2.6,0.01656,9.77222
2.7,0.01728,10.08266
2.8,0.01807,10.20769
2.9,0.01894,10.51035
3,0.01978,10.63838
3.1,0.02052,10.87401
3.2,0.0213,10.99951
3.3,0.02213,11.01178
3.4,0.02299,11.31092
3.5,0.02381,11.56433
3.6,0.02463,11.36477
3.7,0.02551,11.72027
3.8,0.02644,11.93267
3.9,0.02726,12.10176
4,0.02806,12.24816
4.1,0.02892,12.42675
4.2,0.02986,12.89369
4.3,0.03067,12.98246
4.4,0.03152,12.95796
4.5,0.03247,13.58948
4.6,0.03341,13.97102
4.7,0.03421,13.84148
4.8,0.03509,14.2571
4.9,0.03604,15.17896
5,0.03701,15.48263
5.1,0.03789,15.63389
5.2,0.03888,15.65347
5.3,0.03978,16.4735
5.4,0.04077,17.12921
5.5,0.04166,18.1246
5.6,0.04268,18.40712
5.7,0.04359,18.95156
5.8,0.04459,20.17756
5.9,0.04547,20.8232
6,0.04647,21.55432
6.1,0.04743,22.39057
6.2,0.04838,23.87548
6.3,0.04932,23.7708
6.4,0.05026,24.87649
6.5,0.05124,26.16372
6.6,0.05228,27.23972
6.7,0.05322,29.11136
6.8,0.0542,30.33735
6.9,0.05526,31.57452
7,0.05627,33.60135
7.1,0.05733,34.43261
7.2,0.05832,35.90036
7.3,0.0594,37.47142
7.4,0.06037,38.86054
7.5,0.06138,40.68492
7.6,0.06246,41.80246
7.7,0.06351,42.89021
7.8,0.06466,45.39647
7.9,0.06562,47.37757
8,0.06673,49.39325
8.1,0.0678,51.81014
8.2,0.06891,56.10981
8.3,0.06994,58.20413
8.4,0.07104,61.48364
8.5,0.07207,66.23624
8.6,0.07324,68.23104
8.7,0.07428,72.5358
8.8,0.07533,74.01897
8.9,0.0764,76.10774
9,0.07746,78.42439
9.1,0.07851,79.8378
9.2,0.07963,80.63103
9.3,0.08076,82.12532
9.4,0.08192,82.77775
9.5,0.08312,83.85868
9.6,0.08421,85.13221
9.7,0.08536,86.27085
9.8,0.08661,88.95792
9.9,0.08771,90.72602
10,0.08878,92.24462
10.1,0.0899,93.50861
10.2,0.09109,97.98698
10.3,0.09224,98.23112
10.4,0.09333,100.91
10.5,0.09447,104.1582
10.6,0.09565,105.666
10.7,0.09677,107.318
10.8,0.09779,108.311
10.9,0.09895,110.122
11,0.10017,111.497
11.1,0.10134,112.6804
11.2,0.10247,114.523
11.3,0.10364,116.387
11.4,0.10487,119.373
11.5,0.10605,120.166
11.6,0.10712,122.299
11.7,0.10837,125.996
11.8,0.10966,128.832
11.9,0.11089,130.738
12,0.11209,134.14
12.1,0.11332,136.429
12.2,0.11446,138.094
12.3,0.11563,139.637
12.4,0.11678,140.521
12.5,0.11797,141.673
12.6,0.11931,143.243
12.7,0.12045,144.042
12.8,0.12155,145.358
12.9,0.12282,148.062
13,0.12404,150.512
13.1,0.12535,153.163
13.2,0.12668,156.29
13.3,0.12791,160.646
13.4,0.12918,164.201
13.5,0.13035,166.17
13.6,0.13149,167.784
13.7,0.13281,170.717
13.8,0.13412,172.944
13.9,0.13539,174.2093
14,0.1367,175.365
14.1,0.13797,177.604
14.2,0.1394,178.729
14.3,0.14068,180.552
14.4,0.14197,182.639
14.5,0.14341,184.721
14.6,0.14483,186.812
14.7,0.1461,188.843
14.8,0.14744,190.722
14.9,0.14888,192.536
15,0.15024,194.865
15.1,0.15164,196.433
15.2,0.15315,198.466
15.3,0.15461,200.451
15.4,0.1561,201.664
15.5,0.15747,203.344
15.6,0.15896,204.41
15.7,0.16051,205.8232
15.8,0.16203,206.828
15.9,0.16358,208.063
16,0.16516,209.497
16.1,0.16675,210.004
16.2,0.16842,210.99
16.3,0.17002,212.691
16.4,0.17156,213.739
16.5,0.17324,214.57
16.6,0.17484,215.617
16.7,0.17645,215.788
16.8,0.17826,216.972
16.9,0.18009,216.886
17,0.18198,216.8492
17.1,0.18392,217.69
17.2,0.18596,218.708
17.3,0.18807,217.692
17.4,0.19008,217.832
17.5,0.19202,217.805
17.6,0.19406,218.179
17.7,0.19626,217.158
17.8,0.19843,217.364
17.9,0.20057,217.235
18,0.20269,216.161
18.1,0.20496,215.387
18.2,0.20705,215.615
18.3,0.20913,215.452
18.4,0.21137,215.042
18.5,0.21364,214.135
18.6,0.21589,213.538
18.7,0.21801,213.44
18.8,0.22016,212.6911
18.9,0.2224,211.981
19,0.2246,210.773
19.1,0.22686,210.113
19.2,0.22922,209.493
19.3,0.23152,208.723
19.4,0.23382,207.0097
19.5,0.2361,206.278
19.6,0.23845,204.809
19.7,0.24089,203.441
19.8,0.24352,202.631
19.9,0.24605,199.97
20,0.24862,198.158
20.1,0.2512,195.744
20.2,0.2538,193.226
20.3,0.25642,190.5
20.4,0.25902,187.0854
20.5,0.26215,182.915
20.6,0.26647,175.682
20.7,0.27167,163.793
20.8,0.27633,149.423
20.9,0.28072,141.84
21,0.28515,137.477
21.1,0.2892,129.847
21.2,0.29316,120.44
21.3,0.29715,114.1635
21.4,0.3011,109.754
21.5,0.305,105.766
21.6,0.30866,99.16736
21.7,0.31239,93.43984
21.8,0.31626,88.8226
21.9,0.32003,84.57719
22,0.32379,81.9996
22.1,0.32755,78.72014
22.2,0.33123,74.0626
22.3,0.33492,65.77512
22.4,0.33869,58.84795
22.5,0.34247,49.98019
22.6,0.3462,44.83443
22.7,0.34983,41.20316
22.8,0.35336,38.30797
22.9,0.35701,35.09419
23,0.36067,32.11293
23.1,0.36422,28.45911
23.2,0.36772,26.27495
23.3,0.3712,23.96539
23.4,0.37463,22.97846
23.5,0.37789,21.0848
23.6,0.38113,20.18734
23.7,0.38453,18.06936
23.8,0.38801,17.44973
23.9,0.39097,16.13745
24,0.39411,16.18641
24.1,0.39721,15.15628
24.2,0.40034,14.75559
24.3,0.4034,14.11361
24.4,0.40639,13.99005
24.5,0.4094,13.71176
24.6,0.41244,13.0729
24.7,0.41525,12.88484
24.8,0.41814,12.57418
24.9,0.42108,12.56498
25,0.42389,12.36166
25.1,0.42662,12.29697
25.2,0.42949,11.93653
25.3,0.43231,11.85934
25.4,0.43498,11.65326
25.5,0.43761,11.53292
25.6,0.44031,11.39993
25.7,0.44314,11.36691
25.8,0.44579,11.10732
25.9,0.44843,11.11539
26,0.45114,10.89021
26.1,0.45377,10.80594
26.2,0.45627,10.83172
26.3,0.45899,10.77437
26.4,0.46164,10.67557
26.5,0.46432,10.49423
26.6,0.46686,10.20148
26.7,0.4694,10.30307
26.8,0.472,10.19017
26.9,0.47465,10.19528
27,0.47723,10.05143
27.1,0.4797,9.76866
27.2,0.48222,9.77921
27.3,0.48485,9.60284
27.4,0.48743,9.48258
27.5,0.48989,9.30606
27.6,0.49238,9.41973
27.7,0.49487,9.27703
27.8,0.49736,9.33388
27.9,0.49982,9.04659
28,0.50247,8.70678
28.1,0.50505,8.31524
28.2,0.50742,8.41542
28.3,0.50973,8.43918
28.4,0.5122,8.44473
28.5,0.51469,8.13606
28.6,0.51727,7.61967
28.7,0.51969,7.74278
28.8,0.52222,7.56063
28.9,0.52458,7.63512
29,0.52691,7.11727
29.1,0.52919,7.17423
29.2,0.53172,7.13929
29.3,0.53417,7.16565
29.4,0.53656,6.94083
29.5,0.53886,6.84582
29.6,0.54127,6.81523
29.7,0.5437,6.59715
29.8,0.54604,6.66416
29.884,0.54793,6.52914

File: Ti 0deg 1.csv
Time (s),Displacement (mm) ,Load (N),Width (mm),Base (mm),Final crack length (mm)
0,0.00001,-0.9744,25,9.45,6.93
0.3,0.00008,1.96709,,,
0.6,0.00067,19.71032,,,
0.9,0.00122,41.14278,,,
1.2,0.00183,84.56867,,,
1.5,0.00252,136.777,,,
1.8,0.00313,176.502,,,
2.1,0.00387,222.773,,,
2.4,0.00454,248.702,,,
2.7,0.00528,289.804,,,
3,0.00606,331.36,,,
3.3,0.00684,379.186,,,
3.6,0.00762,420.732,,,
3.9,0.00842,456.392,,,
4.2,0.00931,519.814,,,
4.5,0.01013,571.629,,,
4.8,0.01098,615.796,,,
5.1,0.01195,651.753,,,
5.4,0.01288,710.472,,,
5.7,0.0138,772.807,,,
6,0.01493,831.818,,,
6.3,0.01584,868.201,,,
6.6,0.01697,930.834,,,
6.9,0.01797,993.877,,,
7.2,0.01912,1047.7,,,
7.5,0.02018,1097.94,,,
7.8,0.02133,1162.64,,,
8.1,0.02254,1231.39,,,
8.4,0.02366,1274.08,,,
8.7,0.02486,1347.41,,,
9,0.02605,1421.11,,,
9.3,0.02729,1463.75,,,
9.6,0.02845,1528.04,,,
9.9,0.02971,1592.57,,,
10.2,0.03094,1661.99,,,
10.5,0.0322,1717.25,,,
10.8,0.03345,1794.48,,,
11.1,0.03465,1855.81,,,
11.4,0.03585,1900.65,,,
11.7,0.03709,1959.02,,,
12,0.0383,2035.29,,,
12.3,0.03955,2093.03,,,
12.6,0.0409,2157.81,,,
12.9,0.04209,2228.36,,,
13.2,0.04348,2275.41,,,
13.5,0.0449,2355.57,,,
13.8,0.04625,2433.47,,,
14.1,0.04757,2492.09,,,
14.4,0.04882,2551.88,,,
14.7,0.05018,2637.64,,,
15,0.05157,2704.7,,,
15.3,0.0529,2770.32,,,
15.6,0.05421,2825.68,,,
15.9,0.05552,2898.86,,,
16.2,0.05687,2978.29,,,
16.5,0.05821,3060.48,,,
16.8,0.05961,3104.15,,,
17.1,0.06099,3181.22,,,
17.4,0.06246,3267.94,,,
17.7,0.06386,3334.51,,,
18,0.0652,3388.89,,,
18.3,0.06655,3481.52,,,
18.6,0.06796,3542.64,,,
18.9,0.06934,3621.52,,,
19.2,0.07069,3689.33,,,
19.5,0.07219,3754.77,,,
19.8,0.07357,3849.66,,,
20.1,0.07502,3928.35,,,
20.4,0.07636,3966.59,,,
20.7,0.07781,4061.1,,,
21,0.0792,4150.44,,,
21.3,0.08064,4218.6,,,
21.6,0.08202,4282.73,,,
21.9,0.08342,4351.71,,,
22.2,0.0849,4444.94,,,
22.5,0.08632,4523.76,,,
22.8,0.08776,4577.67,,,
23.1,0.08922,4664.77,,,
23.4,0.09067,4756.88,,,
23.7,0.0921,4805.93,,,
24,0.09356,4890.45,,,
24.3,0.09492,4967.04,,,
24.6,0.0963,5053.11,,,
24.9,0.09782,5135.09,,,
25.2,0.0992,5191.65,,,
25.5,0.10069,5286.979,,,
25.8,0.10224,5364.33,,,
26.1,0.10375,5438.4,,,
26.4,0.1052,5515.95,,,
26.7,0.10665,5594.396,,,
27,0.10813,5662.63,,,
27.3,0.1096,5763.83,,,
27.6,0.11107,5824.62,,,
27.9,0.11259,5910.81,,,
28.2,0.11407,5992.86,,,
28.5,0.11558,6073.11,,,
28.8,0.11704,6155.86,,,
29.1,0.11854,6210.83,,,
29.4,0.12006,6322.76,,,
29.7,0.12167,6408.74,,,
30,0.12324,6463.73,,,
30.3,0.12466,6555.54,,,
30.6,0.12625,6636.18,,,
30.9,0.12782,6728.01,,,
31.2,0.12936,6799.79,,,
31.5,0.13085,6882.02,,,
31.8,0.13242,6981.33,,,
32.1,0.13404,7036.66,,,
32.4,0.13554,7131.62,,,
32.7,0.13707,7223.39,,,
33,0.13862,7296.08,,,
33.3,0.14011,7374.44,,,
33.6,0.14178,7466.94,,,
33.9,0.14336,7568.36,,,
34.2,0.14494,7631.34,,,
34.5,0.1465,7718.64,,,
34.8,0.14811,7822.69,,,
35.1,0.14971,7879.75,,,
35.4,0.15133,7977.1,,,
35.7,0.15289,8069.41,,,
36,0.15448,8153.48,,,
36.3,0.1561,8237.97,,,
36.6,0.15772,8314.87,,,
36.9,0.15936,8424.14,,,
37.2,0.16101,8483.63,,,
37.5,0.16271,8578.14,,,
37.8,0.16428,8688.17,,,
38.1,0.16599,8757.63,,,
38.4,0.16747,8852.45,,,
38.7,0.16915,8925.33,,,
39,0.17084,9016.89,,,
39.3,0.17237,9103.92,,,
39.6,0.17404,9196.87,,,
39.9,0.17571,9293.78,,,
40.2,0.1775,9369.41,,,
40.5,0.17917,9465.27,,,
40.8,0.18086,9538.45,,,
41.1,0.18248,9632.57,,,
41.4,0.18413,9719.35,,,
41.7,0.18587,9819.88,,,
42,0.18746,9906.07,,,
42.3,0.1892,9993.09,,,
42.6,0.19086,10094.5,,,
42.9,0.19258,10145.3,,,
43.2,0.1943,10263.7,,,
43.5,0.19597,10345.9,,,
43.8,0.19762,10428.8,,,
44.1,0.19937,10532.7,,,
44.4,0.20115,10620.1,,,
44.7,0.20281,10703,,,
45,0.20461,10786.5,,,
45.3,0.20633,10897.6,,,
45.6,0.20803,10961.5,,,
45.9,0.20975,11053.1,,,
46.2,0.21148,11158.9,,,
46.5,0.21329,11247.9,,,
46.8,0.2151,11339.9,,,
47.1,0.21681,11421.7,,,
47.4,0.21867,11531.8,,,
47.7,0.22047,11583.8,,,
48,0.22225,11700.3,,,
48.3,0.2241,11795.2,,,
48.6,0.2258,11866.7,,,
48.9,0.22759,11970,,,
49.2,0.22925,12067.125,,,
49.5,0.2311,12151.7,,,
49.8,0.23298,12230.1,,,
50.1,0.23486,12350.3,,,
50.4,0.23671,12408.2,,,
50.7,0.23853,12511.4,,,
51,0.24053,12614.5,,,
51.3,0.24255,12690,,,
51.6,0.2444,12791,,,
51.9,0.24675,12856.8,,,
52.2,0.24881,12961.3,,,
52.5,0.25088,13038.8,,,
52.8,0.2529,13128.9,,,
53.1,0.25556,13167.7,,,
53.4,0.25908,13228.6,,,
53.7,0.26135,13322.1,,,
54,0.26362,13414.7,,,
54.3,0.26569,13491.5,,,
54.578,0.27529,13419.8,,,
54.596,0.2979,12933.9,,,
54.63,0.31577,12551.8,,,
54.93,0.31756,12663.5,,,
55.23,0.32073,12774.7,,,
55.53,0.32377,12858.2,,,
55.83,0.32685,12964.5,,,
56.13,0.3297,13037.7,,,
56.43,0.33293,13132.9,,,
56.73,0.33676,13214.3,,,
57.03,0.34114,13234.2,,,
57.33,0.34518,13313.8,,,
57.63,0.34961,13372.2,,,
57.93,0.35385,13424.5,,,
58.23,0.35758,13480.7,,,
58.334,0.38237,12904.6,,,
58.34,0.39768,12519.8,,,
58.35,0.42172,11916.3,,,
58.362,0.444,11360.1,,,
58.38,0.46201,10936.625,,,
58.668,0.47802,10723.4,,,
58.694,0.4988,10260.6,,,
58.7,0.55492,9236.79,,,
58.706,0.64973,7687.28,,,
58.712,0.758,5998.51,,,
58.718,0.86223,4413.59,,,
58.724,0.95289,3062.91,,,
58.73,1.0253,1997.25,,,
58.736,1.07945,1215.5,,,
58.742,1.11695,685.787,,,
58.752,1.15031,235.581,,,
58.9,1.13507,561.887,,,
59.2,1.14082,567.613,,,
59.5,1.14743,575.755,,,
59.8,1.15385,584.291,,,
60.1,1.16031,590.73,,,
60.4,1.16651,593.392,,,
60.7,1.17284,595.8725,,,
61,1.17931,597.857,,,
61.3,1.18559,600.715,,,
61.6,1.19183,602.987,,,
61.9,1.19818,603.4,,,
62.2,1.2048,601.545,,,
62.4,1.20928,600.623,,,

File: Ti 0deg 2.csv
Time (s),Displacement (mm) ,Load (N),Width (mm),Base (mm),Final crack length (mm)
0,-0.00057,0.18876,25.0,9.5,7.22
0.3,-0.00052,5.89393
0.6,0.0002,51.39007
0.9,0.00072,80.16943
1.2,0.00112,120.847
1.5,0.00145,145.043
1.8,0.00191,177.594
2.1,0.00237,207.488
2.4,0.0029,228.828
2.7,0.00349,263.049
3,0.00405,294.741
3.3,0.00476,333.798
3.6,0.00548,376.362
3.9,0.00628,418.395
4.2,0.00701,462.793
4.5,0.00778,517.068
4.8,0.00859,560.949
5.1,0.00946,600.297
5.4,0.0104,633.0733
5.7,0.01133,688.937
6,0.0123,749.488
6.3,0.01326,809.397
6.6,0.01427,837.8
6.9,0.01534,889.845
7.2,0.01639,940.802
7.5,0.01746,996.791
7.8,0.01858,1046.69
8.1,0.0198,1102.46
8.4,0.02092,1157.63
8.7,0.02208,1219.44
9,0.02321,1255.93
9.3,0.02442,1324.79
9.6,0.02564,1385.74
9.9,0.02682,1434.63
10.2,0.02789,1484.91
10.5,0.02913,1552.83
10.8,0.03037,1616.61
11.1,0.03157,1654.51
11.4,0.0328,1720.23
11.7,0.03407,1793.91
12,0.03531,1848.43
12.3,0.0365,1894.57
12.6,0.03784,1962.02
12.9,0.03921,2034.75
13.2,0.04043,2086.8
13.5,0.04169,2151.76
13.8,0.04293,2219.32
14.1,0.04427,2261.95
14.4,0.04566,2338.1
14.7,0.04693,2410.74
15,0.04824,2471.4
15.3,0.04969,2524.69
15.6,0.05101,2604.21
15.9,0.0524,2679.27
16.2,0.05368,2728.32
16.5,0.05504,2792.1
16.8,0.05641,2861.39
17.1,0.05772,2923.09
17.4,0.0591,3013.1
17.7,0.06042,3069.95
18,0.06186,3107.74
18.3,0.06321,3187.4
18.6,0.0647,3275.51
18.9,0.06607,3329.84
19.2,0.06737,3386.78
19.5,0.06883,3472.41
19.8,0.07019,3529.44
20.1,0.0716,3613.21
20.4,0.07303,3673.24
20.7,0.07434,3732.53
21,0.07584,3821.23
21.3,0.07738,3907.55
21.6,0.07887,3943.01
21.9,0.0803,4017.79
22.2,0.0818,4103
22.5,0.0833,4170.86
22.8,0.08477,4245.84
23.1,0.08617,4315.47
23.4,0.08764,4382.61
23.7,0.08912,4470.42
24,0.09065,4533.57
24.3,0.09226,4608.72
24.6,0.09372,4698.29
24.9,0.09523,4755.64
25.2,0.09676,4826.5
25.5,0.09838,4914.13
25.8,0.09985,4982.59
26.1,0.10139,5066.76
26.4,0.1029,5149.38
26.7,0.10446,5203.89
27,0.106,5295.53
27.3,0.10763,5360.7
27.6,0.10927,5445.48
27.9,0.11085,5533.84
28.2,0.11247,5591.25
28.5,0.11399,5676.93
28.8,0.11555,5766.37
29.1,0.11708,5826.25
29.4,0.11882,5903.16
29.7,0.12034,5989.19
30,0.12206,6066.47
30.3,0.12362,6156.98
30.6,0.12513,6211.42
30.9,0.12679,6318.95
31.2,0.12841,6397.21
31.5,0.13004,6458.98
31.8,0.1317,6561.2
32.1,0.13327,6623.48
32.4,0.13504,6715.59
32.7,0.13676,6787.67
33,0.13847,6869.21
33.3,0.14014,6970.33
33.6,0.14186,7019.26
33.9,0.14338,7113.49
34.2,0.145,7208.6
34.5,0.14662,7277.54
34.8,0.14828,7350.95
35.1,0.14994,7438.46
35.4,0.15169,7542.1
35.7,0.1535,7609.16
36,0.1552,7682.33
36.3,0.15687,7786.22
36.6,0.15855,7854.7
36.9,0.16022,7937.41
37.2,0.162,8034.22
37.5,0.16365,8119.77
37.8,0.16547,8200.5
38.1,0.16719,8268.55
38.4,0.1689,8385.36
38.7,0.17063,8452.94
39,0.17231,8534.16
39.3,0.17417,8639.31
39.6,0.17594,8701.32
39.9,0.17764,8794.38
40.2,0.17943,8868.87
40.5,0.18126,8970.12
40.8,0.18303,9059.67
41.1,0.18471,9128.72
41.4,0.18647,9236.57
41.7,0.18813,9295.05
42,0.18995,9398.51
42.3,0.19172,9487.56
42.6,0.19368,9567.3
42.9,0.19566,9677.35
43.2,0.19745,9739.36
43.5,0.1993,9829.3
43.8,0.20099,9910.94
44.1,0.20276,10009.4
44.4,0.20462,10099.6
44.7,0.20639,10178.1
45,0.20822,10281.3
45.3,0.21,10349
45.6,0.21192,10435
45.9,0.21371,10528.4
46.2,0.2156,10623.9
46.5,0.21764,10700.4
46.8,0.21946,10794.4
47.1,0.22134,10899.2
47.4,0.22326,10949.4
47.7,0.22508,11047.8
48,0.22702,11148.1
48.3,0.22889,11233.2
48.6,0.23082,11325.3
48.9,0.23265,11406.6
49.2,0.2346,11512.8
49.5,0.23648,11563.9
49.8,0.23866,11665.9
50.1,0.24087,11775.5
50.4,0.24282,11833.4
50.7,0.2447,11903.1
51,0.24674,11989.5
51.3,0.24896,12087.5
51.6,0.25118,12164.5
51.9,0.25341,12255.2
52.2,0.25572,12363.5
52.5,0.25786,12417.5
52.8,0.26008,12528.3
53.1,0.26228,12615.2
53.4,0.26436,12688.4
53.7,0.26652,12785.1
54,0.27126,12699
54.3,0.2744,12792.8
54.6,0.27697,12908.8
54.9,0.27937,12987.7
55.2,0.28169,13060
55.5,0.28412,13171.4
55.8,0.28656,13220.7
56.1,0.28892,13328.8
56.4,0.29141,13408.9
56.7,0.29389,13483.9
57,0.29643,13585.9
57.3,0.29913,13634.9
57.564,0.30614,13577.8
57.778,0.31716,13376.9
58.078,0.32121,13445.9
58.378,0.32492,13536
58.678,0.33019,13601.2
58.978,0.3379,13547.4
59.278,0.34488,13539.8
59.578,0.35224,13524.4
59.648,0.42008,12293.5
59.654,0.52859,10367.1
59.66,0.65294,8181.34
59.666,0.77314,6084.84
59.672,0.87751,4269.96
59.678,0.96158,2818.2
59.684,1.02445,1737.9
59.69,1.06788,993.459

File: Ti 0deg 3.csv
Time (s),Displacement (mm) ,Load (N),Width (mm),Base (mm),Final crack length (mm)
0,-0.00036,-0.11564,25.0,9.5,6.48
0.3,-0.00025,2.52844
0.6,0.00024,36.06862
0.9,0.00035,61.10199
1.2,0.00078,78.27975
1.5,0.00113,117.201
1.8,0.00146,140.6053
2.1,0.00184,170.141
2.4,0.00226,203.395
2.7,0.00277,218.489
3,0.00328,247.431
3.3,0.00394,281.2435
3.6,0.0045,317.088
3.9,0.00522,363.816
4.2,0.0061,397.606
4.5,0.00711,434.933
4.8,0.00821,496.452
5.1,0.0093,540.961
5.4,0.01057,590.8775
5.7,0.01179,622.837
6,0.01302,675.3
6.3,0.01414,738.943
6.6,0.01543,800.998
6.9,0.0166,828.14
7.2,0.01795,885.164
7.5,0.01935,940.634
7.8,0.02068,998.462
8.1,0.02197,1049.16
8.4,0.02321,1104.74
8.7,0.02449,1171.1
9,0.02577,1230.87
9.3,0.02698,1275.37
9.6,0.02814,1356.55
9.9,0.02931,1414.38
10.2,0.03054,1465.74
10.5,0.03166,1524.83
10.8,0.03286,1603.71
11.1,0.03395,1649.65
11.4,0.03517,1715.26
11.7,0.03639,1792.47
12,0.03757,1848.46
12.3,0.03886,1906.82
12.6,0.04024,1972.85
12.9,0.04158,2051.12
13.2,0.04283,2104.97
13.5,0.04414,2181.56
13.8,0.04547,2240.42
14.1,0.04674,2293.875
14.4,0.04808,2380.81
14.7,0.04943,2457.73
15,0.05072,2491.32
15.3,0.05205,2567.98
15.6,0.05336,2656.23
15.9,0.05467,2716.59
16.2,0.05606,2780.72
16.5,0.05735,2853.58
16.8,0.05869,2918.37
17.1,0.06005,3010.05
17.4,0.06141,3072.15
17.7,0.06268,3117.22
18,0.06399,3207.47
18.3,0.06543,3299.24
18.6,0.06673,3341.15
18.9,0.06808,3411.3
19.2,0.06944,3494.93
19.5,0.07073,3567.88
19.8,0.07208,3640.29
20.1,0.07347,3699.51
20.4,0.07481,3783.04
20.7,0.076,3878.6
21,0.07732,3926.78
21.3,0.07867,4000.53
21.6,0.07996,4093.65
21.9,0.08122,4159.01
22.2,0.08256,4239.48
22.5,0.08382,4311.17
22.8,0.08521,4377.12
23.1,0.08653,4471.18
23.4,0.08793,4534.93
23.7,0.08921,4612.96
24,0.09046,4708.4
24.3,0.09185,4763.6
24.6,0.09317,4853.33
24.9,0.09446,4934.11
25.2,0.09577,5012.76
25.5,0.09708,5093.45
25.8,0.09864,5165.34
26.1,0.0999,5246.23
26.4,0.10125,5338.09
26.7,0.10254,5400.41
27,0.10389,5491.05
27.3,0.10513,5574.97
27.6,0.1064,5642.57
27.9,0.10769,5745.07
28.2,0.10906,5803.26
28.5,0.11045,5893.01
28.8,0.1117,5975.13
29.1,0.11312,6058.06
29.4,0.11445,6146.63
29.7,0.11589,6203.1
30,0.11737,6315.02
30.3,0.11875,6396.74
30.6,0.12006,6462.14
30.9,0.12152,6567.01
31.2,0.12282,6631.16
31.5,0.12434,6723.39
31.8,0.12568,6796.16
32.1,0.12718,6892.22
32.4,0.12859,6994.78
32.7,0.12998,7034.33
33,0.13151,7152.47
33.3,0.13294,7237.81
33.6,0.13425,7302.99
33.9,0.13565,7406.2
34.2,0.13703,7482.34
34.5,0.13854,7586.32
34.8,0.14001,7635.79
35.1,0.1415,7739.7
35.4,0.14299,7846.04
35.7,0.14449,7907.86
36,0.14593,8013.89
36.3,0.1474,8092.53
36.6,0.14892,8176.21
36.9,0.15051,8255.97
37.2,0.15202,8368.4
37.5,0.1536,8450.3
37.8,0.15521,8533.18
38.1,0.15691,8639.8
38.4,0.15848,8702.73
38.7,0.16009,8802.53
39,0.16164,8880.99
39.3,0.16318,8981.67
39.6,0.16473,9072.97
39.9,0.16626,9156.07
40.2,0.16785,9261.42
40.5,0.16955,9329.38
40.8,0.17123,9427.67
41.1,0.17288,9513.41
41.4,0.17459,9606.53
41.7,0.17641,9699.56
42,0.17792,9795.52
42.3,0.17949,9886.65
42.6,0.18121,9974.51
42.9,0.18277,10078.9
43.2,0.18445,10132.8
43.5,0.18612,10252.2
43.8,0.18779,10333.8
44.1,0.18938,10418.3
44.4,0.19094,10523.7
44.7,0.19261,10616.4
45,0.19427,10697
45.3,0.19605,10800
45.6,0.19767,10904.7
45.9,0.19935,10955
46.2,0.20107,11068.7
46.5,0.2028,11164.6
46.8,0.20442,11245.4
47.1,0.20611,11347.6
47.4,0.20779,11446.7
47.7,0.20943,11535.7
48,0.21109,11621.5
48.3,0.21283,11731.5
48.6,0.21461,11797.9
48.9,0.21657,11904.5
49.2,0.21829,11995.7
49.5,0.21996,12091.2
49.8,0.22163,12167.9
50.1,0.22337,12273.6
50.4,0.22519,12378.2
50.7,0.22699,12459.1
51,0.22888,12568.3
51.3,0.23073,12639.4
51.6,0.23259,12748
51.9,0.23457,12826.8
52.2,0.23627,12930.4
52.5,0.23817,13011.3
52.8,0.24015,13111.8
53.1,0.24202,13210.4
53.4,0.24394,13305.4
53.7,0.24574,13403.4
54,0.24748,13481.5
54.3,0.24939,13593.9
54.6,0.25113,13664.6
54.9,0.25301,13771.4
55.2,0.25495,13843.1
55.5,0.25685,13946.5
55.8,0.25888,14037.4
56.1,0.26077,14133.5
56.4,0.26273,14238.2
56.7,0.26452,14311.1
57,0.26642,14410.1
57.3,0.26841,14491.2
57.6,0.27042,14603
57.9,0.27246,14658.9
58.2,0.27448,14761.8
58.5,0.27635,14866.2
58.8,0.27817,14945.9
59.1,0.27993,15052
59.4,0.28183,15138.2
59.7,0.28376,15220.3
60,0.2864,15290.4
60.3,0.28831,15404.1
60.6,0.29024,15470.1
60.9,0.29212,15558.1
61.2,0.29407,15672.4
61.5,0.29645,15728.9
61.8,0.29855,15816.3
62.1,0.30074,15889.9
62.4,0.3029,16003.4
62.7,0.30683,16034.9
63,0.30923,16096.9
63.3,0.31188,16187.6
63.308,0.36412,15066.2
63.31,0.39689,14407.4
,,
,,
,,
,,
,,
,,
,,
,,
,,
,,
,,
,,
,,
,,
,,
,,
,,
,,
,,
,,
,,
,,
,,
,,
,,
,,
,,
,,
,,
,,
,,
,,
,,
,,
,,
,,
,,
,,
,,
,,
,,
,,
,,
,,
,,
,,
,,
,,
,,
,,
,,
,,
,,
,,
,,
,,
,,
,,
,,
,,
,,
,,
,,
,,
,,
,,
,,
,,
,,
,,
,,
,,
,,
,,
,,
,,
,,
,,
,,
,,
,,
,,
,,
,,
,,
,,
,,
,,
,,
,,
,,
,,
,,
,,
,,